File: BioGrapher/MachineReading/aa3.txt
Nov. 10, 2015   10:06:34
Linear Sweep Voltammetry
File: e:\10-11\ph17 mcf10a\acid\aa3.txt
Data Source:  Experiment
Instrument Model:  CHI1030C
Ref. Electrode:
Header:
Note:

Init E (V) = -1
Final E (V) = 1
Scan Rate (V/s) = 0.1
Sample Interval (V) = 0.001
Quiet Time (sec) = 2
Sensitivity (A/V) = 1e-7

Potential/V, Current/A

-1.000, -1.378e-9
-0.998, -1.173e-9
-0.996, -1.291e-9
-0.994, -1.392e-9
-0.992, -9.066e-10
-0.990, -7.756e-10
-0.988, -7.386e-10
-0.986, -7.982e-10
-0.984, -7.952e-10
-0.982, -7.062e-10
-0.980, -8.684e-10
-0.978, -7.477e-10
-0.976, -9.210e-10
-0.974, -8.693e-10
-0.972, -6.551e-10
-0.970, -6.127e-10
-0.968, -7.614e-10
-0.966, -7.216e-10
-0.964, -9.313e-10
-0.962, -6.243e-10
-0.960, -5.703e-10
-0.958, -6.462e-10
-0.956, -7.397e-10
-0.954, -7.628e-10
-0.952, -6.943e-10
-0.950, -5.010e-10
-0.948, -6.633e-10
-0.946, -6.811e-10
-0.944, -7.579e-10
-0.942, -7.505e-10
-0.940, -4.954e-10
-0.938, -7.012e-10
-0.936, -7.497e-10
-0.934, -6.555e-10
-0.932, -5.710e-10
-0.930, -6.678e-10
-0.928, -6.071e-10
-0.926, -8.071e-10
-0.924, -6.777e-10
-0.922, -5.229e-10
-0.920, -5.102e-10
-0.918, -5.934e-10
-0.916, -6.618e-10
-0.914, -5.757e-10
-0.912, -5.775e-10
-0.910, -5.046e-10
-0.908, -4.860e-10
-0.906, -6.960e-10
-0.904, -5.958e-10
-0.902, -5.373e-10
-0.900, -4.547e-10
-0.898, -4.713e-10
-0.896, -6.190e-10
-0.894, -6.174e-10
-0.892, -4.929e-10
-0.890, -4.859e-10
-0.888, -6.113e-10
-0.886, -6.154e-10
-0.884, -7.080e-10
-0.882, -4.628e-10
-0.880, -3.885e-10
-0.878, -5.158e-10
-0.876, -6.144e-10
-0.874, -6.229e-10
-0.872, -6.236e-10
-0.870, -4.257e-10
-0.868, -4.680e-10
-0.866, -7.004e-10
-0.864, -5.687e-10
-0.862, -4.845e-10
-0.860, -4.576e-10
-0.858, -5.739e-10
-0.856, -5.963e-10
-0.854, -5.443e-10
-0.852, -4.635e-10
-0.850, -5.501e-10
-0.848, -4.689e-10
-0.846, -5.991e-10
-0.844, -5.615e-10
-0.842, -4.676e-10
-0.840, -4.965e-10
-0.838, -4.503e-10
-0.836, -6.370e-10
-0.834, -5.585e-10
-0.832, -5.065e-10
-0.830, -4.000e-10
-0.828, -4.869e-10
-0.826, -5.183e-10
-0.824, -5.822e-10
-0.822, -5.581e-10
-0.820, -3.931e-10
-0.818, -5.541e-10
-0.816, -5.468e-10
-0.814, -5.531e-10
-0.812, -4.888e-10
-0.810, -4.395e-10
-0.808, -4.467e-10
-0.806, -5.240e-10
-0.804, -5.252e-10
-0.802, -4.595e-10
-0.800, -4.033e-10
-0.798, -4.665e-10
-0.796, -5.868e-10
-0.794, -6.193e-10
-0.792, -4.785e-10
-0.790, -3.966e-10
-0.788, -4.396e-10
-0.786, -5.429e-10
-0.784, -5.730e-10
-0.782, -5.085e-10
-0.780, -3.925e-10
-0.778, -4.175e-10
-0.776, -4.886e-10
-0.774, -4.933e-10
-0.772, -4.363e-10
-0.770, -3.811e-10
-0.768, -4.422e-10
-0.766, -5.336e-10
-0.764, -5.474e-10
-0.762, -4.935e-10
-0.760, -3.785e-10
-0.758, -4.656e-10
-0.756, -5.310e-10
-0.754, -5.644e-10
-0.752, -4.976e-10
-0.750, -3.728e-10
-0.748, -3.994e-10
-0.746, -5.109e-10
-0.744, -5.267e-10
-0.742, -4.503e-10
-0.740, -3.618e-10
-0.738, -3.861e-10
-0.736, -4.790e-10
-0.734, -4.878e-10
-0.732, -4.169e-10
-0.730, -3.415e-10
-0.728, -3.888e-10
-0.726, -4.805e-10
-0.724, -4.932e-10
-0.722, -4.160e-10
-0.720, -3.335e-10
-0.718, -3.964e-10
-0.716, -4.905e-10
-0.714, -5.188e-10
-0.712, -4.683e-10
-0.710, -3.771e-10
-0.708, -4.133e-10
-0.706, -5.060e-10
-0.704, -5.131e-10
-0.702, -4.196e-10
-0.700, -3.340e-10
-0.698, -3.895e-10
-0.696, -4.677e-10
-0.694, -4.843e-10
-0.692, -4.052e-10
-0.690, -3.372e-10
-0.688, -3.720e-10
-0.686, -4.569e-10
-0.684, -4.739e-10
-0.682, -3.887e-10
-0.680, -3.078e-10
-0.678, -3.555e-10
-0.676, -4.511e-10
-0.674, -4.584e-10
-0.672, -3.879e-10
-0.670, -3.215e-10
-0.668, -3.553e-10
-0.666, -4.468e-10
-0.664, -4.474e-10
-0.662, -3.757e-10
-0.660, -3.111e-10
-0.658, -3.527e-10
-0.656, -4.420e-10
-0.654, -4.663e-10
-0.652, -3.999e-10
-0.650, -3.228e-10
-0.648, -3.656e-10
-0.646, -4.617e-10
-0.644, -4.597e-10
-0.642, -3.700e-10
-0.640, -3.130e-10
-0.638, -3.525e-10
-0.636, -4.340e-10
-0.634, -4.348e-10
-0.632, -3.622e-10
-0.630, -2.738e-10
-0.628, -3.187e-10
-0.626, -4.116e-10
-0.624, -4.136e-10
-0.622, -3.418e-10
-0.620, -2.608e-10
-0.618, -3.124e-10
-0.616, -4.074e-10
-0.614, -4.073e-10
-0.612, -3.363e-10
-0.610, -2.578e-10
-0.608, -2.996e-10
-0.606, -3.916e-10
-0.604, -4.129e-10
-0.602, -3.393e-10
-0.600, -2.576e-10
-0.598, -3.071e-10
-0.596, -3.933e-10
-0.594, -4.033e-10
-0.592, -3.238e-10
-0.590, -2.542e-10
-0.588, -2.965e-10
-0.586, -3.875e-10
-0.584, -3.987e-10
-0.582, -3.289e-10
-0.580, -2.543e-10
-0.578, -2.881e-10
-0.576, -3.880e-10
-0.574, -4.040e-10
-0.572, -3.297e-10
-0.570, -2.609e-10
-0.568, -2.989e-10
-0.566, -3.957e-10
-0.564, -4.055e-10
-0.562, -3.223e-10
-0.560, -2.405e-10
-0.558, -2.768e-10
-0.556, -3.688e-10
-0.554, -3.843e-10
-0.552, -3.078e-10
-0.550, -2.334e-10
-0.548, -2.711e-10
-0.546, -3.627e-10
-0.544, -3.810e-10
-0.542, -3.003e-10
-0.540, -2.166e-10
-0.538, -2.477e-10
-0.536, -3.396e-10
-0.534, -3.559e-10
-0.532, -2.829e-10
-0.530, -2.091e-10
-0.528, -2.504e-10
-0.526, -3.425e-10
-0.524, -3.538e-10
-0.522, -2.827e-10
-0.520, -2.101e-10
-0.518, -2.482e-10
-0.516, -3.443e-10
-0.514, -3.520e-10
-0.512, -2.809e-10
-0.510, -2.121e-10
-0.508, -2.466e-10
-0.506, -3.404e-10
-0.504, -3.590e-10
-0.502, -2.894e-10
-0.500, -2.096e-10
-0.498, -2.400e-10
-0.496, -3.317e-10
-0.494, -3.515e-10
-0.492, -2.821e-10
-0.490, -2.046e-10
-0.488, -2.381e-10
-0.486, -3.286e-10
-0.484, -3.468e-10
-0.482, -2.754e-10
-0.480, -2.017e-10
-0.478, -2.356e-10
-0.476, -3.260e-10
-0.474, -3.415e-10
-0.472, -2.744e-10
-0.470, -1.998e-10
-0.468, -2.268e-10
-0.466, -3.244e-10
-0.464, -3.397e-10
-0.462, -2.699e-10
-0.460, -1.905e-10
-0.458, -2.274e-10
-0.456, -3.201e-10
-0.454, -3.358e-10
-0.452, -2.603e-10
-0.450, -1.849e-10
-0.448, -2.250e-10
-0.446, -3.123e-10
-0.444, -3.296e-10
-0.442, -2.634e-10
-0.440, -1.855e-10
-0.438, -2.205e-10
-0.436, -3.159e-10
-0.434, -3.327e-10
-0.432, -2.609e-10
-0.430, -1.834e-10
-0.428, -2.180e-10
-0.426, -3.124e-10
-0.424, -3.292e-10
-0.422, -2.594e-10
-0.420, -1.831e-10
-0.418, -2.221e-10
-0.416, -3.158e-10
-0.414, -3.293e-10
-0.412, -2.593e-10
-0.410, -1.823e-10
-0.408, -2.129e-10
-0.406, -3.077e-10
-0.404, -3.281e-10
-0.402, -2.566e-10
-0.400, -1.783e-10
-0.398, -2.184e-10
-0.396, -3.176e-10
-0.394, -3.323e-10
-0.392, -2.575e-10
-0.390, -1.845e-10
-0.388, -2.138e-10
-0.386, -3.038e-10
-0.384, -3.212e-10
-0.382, -2.531e-10
-0.380, -1.755e-10
-0.378, -2.040e-10
-0.376, -3.004e-10
-0.374, -3.194e-10
-0.372, -2.506e-10
-0.370, -1.689e-10
-0.368, -2.034e-10
-0.366, -2.986e-10
-0.364, -3.063e-10
-0.362, -2.484e-10
-0.360, -1.718e-10
-0.358, -2.088e-10
-0.356, -2.976e-10
-0.354, -3.161e-10
-0.352, -2.493e-10
-0.350, -1.672e-10
-0.348, -1.967e-10
-0.346, -2.910e-10
-0.344, -3.113e-10
-0.342, -2.411e-10
-0.340, -1.627e-10
-0.338, -1.977e-10
-0.336, -2.959e-10
-0.334, -3.136e-10
-0.332, -2.466e-10
-0.330, -1.673e-10
-0.328, -1.993e-10
-0.326, -2.869e-10
-0.324, -3.077e-10
-0.322, -2.360e-10
-0.320, -1.632e-10
-0.318, -1.946e-10
-0.316, -2.955e-10
-0.314, -3.109e-10
-0.312, -2.411e-10
-0.310, -1.668e-10
-0.308, -1.963e-10
-0.306, -2.883e-10
-0.304, -3.087e-10
-0.302, -2.407e-10
-0.300, -1.631e-10
-0.298, -1.915e-10
-0.296, -2.818e-10
-0.294, -3.042e-10
-0.292, -2.405e-10
-0.290, -1.617e-10
-0.288, -1.946e-10
-0.286, -2.937e-10
-0.284, -3.149e-10
-0.282, -2.461e-10
-0.280, -1.678e-10
-0.278, -2.010e-10
-0.276, -2.973e-10
-0.274, -3.157e-10
-0.272, -2.493e-10
-0.270, -1.660e-10
-0.268, -1.969e-10
-0.266, -2.890e-10
-0.264, -3.050e-10
-0.262, -2.427e-10
-0.260, -1.674e-10
-0.258, -1.941e-10
-0.256, -2.822e-10
-0.254, -3.044e-10
-0.252, -2.343e-10
-0.250, -1.568e-10
-0.248, -1.893e-10
-0.246, -2.828e-10
-0.244, -3.028e-10
-0.242, -2.351e-10
-0.240, -1.568e-10
-0.238, -1.830e-10
-0.236, -2.758e-10
-0.234, -2.976e-10
-0.232, -2.368e-10
-0.230, -1.518e-10
-0.228, -1.844e-10
-0.226, -2.801e-10
-0.224, -3.056e-10
-0.222, -2.385e-10
-0.220, -1.583e-10
-0.218, -1.882e-10
-0.216, -2.877e-10
-0.214, -3.073e-10
-0.212, -2.405e-10
-0.210, -1.591e-10
-0.208, -1.852e-10
-0.206, -2.774e-10
-0.204, -3.015e-10
-0.202, -2.384e-10
-0.200, -1.599e-10
-0.198, -1.846e-10
-0.196, -2.835e-10
-0.194, -3.041e-10
-0.192, -2.315e-10
-0.190, -1.567e-10
-0.188, -1.860e-10
-0.186, -2.742e-10
-0.184, -3.008e-10
-0.182, -2.375e-10
-0.180, -1.514e-10
-0.178, -1.754e-10
-0.176, -2.711e-10
-0.174, -2.972e-10
-0.172, -2.315e-10
-0.170, -1.473e-10
-0.168, -1.789e-10
-0.166, -2.695e-10
-0.164, -2.949e-10
-0.162, -2.319e-10
-0.160, -1.502e-10
-0.158, -1.745e-10
-0.156, -2.647e-10
-0.154, -2.935e-10
-0.152, -2.332e-10
-0.150, -1.505e-10
-0.148, -1.748e-10
-0.146, -2.718e-10
-0.144, -2.924e-10
-0.142, -2.281e-10
-0.140, -1.464e-10
-0.138, -1.744e-10
-0.136, -2.732e-10
-0.134, -2.930e-10
-0.132, -2.303e-10
-0.130, -1.536e-10
-0.128, -1.791e-10
-0.126, -2.731e-10
-0.124, -2.974e-10
-0.122, -2.359e-10
-0.120, -1.576e-10
-0.118, -1.780e-10
-0.116, -2.704e-10
-0.114, -2.939e-10
-0.112, -2.338e-10
-0.110, -1.536e-10
-0.108, -1.752e-10
-0.106, -2.716e-10
-0.104, -2.928e-10
-0.102, -2.289e-10
-0.100, -1.440e-10
-0.098, -1.733e-10
-0.096, -2.731e-10
-0.094, -3.019e-10
-0.092, -2.379e-10
-0.090, -1.553e-10
-0.088, -1.826e-10
-0.086, -2.752e-10
-0.084, -2.980e-10
-0.082, -2.332e-10
-0.080, -1.565e-10
-0.078, -1.804e-10
-0.076, -2.760e-10
-0.074, -3.022e-10
-0.072, -2.422e-10
-0.070, -1.587e-10
-0.068, -1.828e-10
-0.066, -2.768e-10
-0.064, -3.072e-10
-0.062, -2.448e-10
-0.060, -1.650e-10
-0.058, -1.841e-10
-0.056, -2.814e-10
-0.054, -3.121e-10
-0.052, -2.465e-10
-0.050, -1.651e-10
-0.048, -1.881e-10
-0.046, -2.815e-10
-0.044, -3.126e-10
-0.042, -2.528e-10
-0.040, -1.678e-10
-0.038, -1.882e-10
-0.036, -2.833e-10
-0.034, -3.133e-10
-0.032, -2.504e-10
-0.030, -1.649e-10
-0.028, -1.908e-10
-0.026, -2.882e-10
-0.024, -3.166e-10
-0.022, -2.549e-10
-0.020, -1.746e-10
-0.018, -1.937e-10
-0.016, -2.916e-10
-0.014, -3.221e-10
-0.012, -2.589e-10
-0.010, -1.752e-10
-0.008, -1.989e-10
-0.006, -2.940e-10
-0.004, -3.199e-10
-0.002, -2.583e-10
-0.000, -1.768e-10
0.002, -1.979e-10
0.004, -2.963e-10
0.006, -3.245e-10
0.008, -2.677e-10
0.010, -1.848e-10
0.012, -2.070e-10
0.014, -3.019e-10
0.016, -3.374e-10
0.018, -2.759e-10
0.020, -1.905e-10
0.022, -2.095e-10
0.024, -3.079e-10
0.026, -3.391e-10
0.028, -2.793e-10
0.030, -2.046e-10
0.032, -2.236e-10
0.034, -3.180e-10
0.036, -3.450e-10
0.038, -2.826e-10
0.040, -2.003e-10
0.042, -2.206e-10
0.044, -3.140e-10
0.046, -3.459e-10
0.048, -2.871e-10
0.050, -2.009e-10
0.052, -2.196e-10
0.054, -3.206e-10
0.056, -3.479e-10
0.058, -2.881e-10
0.060, -2.079e-10
0.062, -2.255e-10
0.064, -3.195e-10
0.066, -3.499e-10
0.068, -2.916e-10
0.070, -2.080e-10
0.072, -2.250e-10
0.074, -3.217e-10
0.076, -3.528e-10
0.078, -2.921e-10
0.080, -2.094e-10
0.082, -2.219e-10
0.084, -3.153e-10
0.086, -3.482e-10
0.088, -2.864e-10
0.090, -2.046e-10
0.092, -2.216e-10
0.094, -3.146e-10
0.096, -3.441e-10
0.098, -2.874e-10
0.100, -2.029e-10
0.102, -2.164e-10
0.104, -3.095e-10
0.106, -3.406e-10
0.108, -2.775e-10
0.110, -1.946e-10
0.112, -2.121e-10
0.114, -3.107e-10
0.116, -3.409e-10
0.118, -2.836e-10
0.120, -1.977e-10
0.122, -2.141e-10
0.124, -3.077e-10
0.126, -3.405e-10
0.128, -2.807e-10
0.130, -1.966e-10
0.132, -2.112e-10
0.134, -3.066e-10
0.136, -3.399e-10
0.138, -2.782e-10
0.140, -1.914e-10
0.142, -2.069e-10
0.144, -3.009e-10
0.146, -3.312e-10
0.148, -2.722e-10
0.150, -1.876e-10
0.152, -1.997e-10
0.154, -2.913e-10
0.156, -3.268e-10
0.158, -2.652e-10
0.160, -1.778e-10
0.162, -1.912e-10
0.164, -2.842e-10
0.166, -3.135e-10
0.168, -2.513e-10
0.170, -1.643e-10
0.172, -1.772e-10
0.174, -2.671e-10
0.176, -2.969e-10
0.178, -2.353e-10
0.180, -1.469e-10
0.182, -1.558e-10
0.184, -2.453e-10
0.186, -2.770e-10
0.188, -2.137e-10
0.190, -1.230e-10
0.192, -1.327e-10
0.194, -2.235e-10
0.196, -2.516e-10
0.198, -1.869e-10
0.200, -9.804e-11
0.202, -1.076e-10
0.204, -1.942e-10
0.206, -2.232e-10
0.208, -1.607e-10
0.210, -7.067e-11
0.212, -7.697e-11
0.214, -1.647e-10
0.216, -1.949e-10
0.218, -1.295e-10
0.220, -3.516e-11
0.222, -4.420e-11
0.224, -1.333e-10
0.226, -1.581e-10
0.228, -9.292e-11
0.230, -1.803e-12
0.232, -7.897e-12
0.234, -9.205e-11
0.236, -1.169e-10
0.238, -5.544e-11
0.240, 3.901e-11
0.242, 3.744e-11
0.244, -4.692e-11
0.246, -7.481e-11
0.248, -6.571e-12
0.250, 8.936e-11
0.252, 8.768e-11
0.254, 2.151e-12
0.256, -1.985e-11
0.258, 4.858e-11
0.260, 1.458e-10
0.262, 1.449e-10
0.264, 6.349e-11
0.266, 4.129e-11
0.268, 1.099e-10
0.270, 2.096e-10
0.272, 2.139e-10
0.274, 1.311e-10
0.276, 1.097e-10
0.278, 1.832e-10
0.280, 2.837e-10
0.282, 2.873e-10
0.284, 2.082e-10
0.286, 1.888e-10
0.288, 2.618e-10
0.290, 3.644e-10
0.292, 3.714e-10
0.294, 2.962e-10
0.296, 2.768e-10
0.298, 3.508e-10
0.300, 4.585e-10
0.302, 4.671e-10
0.304, 3.911e-10
0.306, 3.744e-10
0.308, 4.527e-10
0.310, 5.579e-10
0.312, 5.684e-10
0.314, 4.979e-10
0.316, 4.867e-10
0.318, 5.635e-10
0.320, 6.725e-10
0.322, 6.888e-10
0.324, 6.204e-10
0.326, 6.055e-10
0.328, 6.877e-10
0.330, 7.998e-10
0.332, 8.150e-10
0.334, 7.479e-10
0.336, 7.405e-10
0.338, 8.262e-10
0.340, 9.389e-10
0.342, 9.595e-10
0.344, 8.979e-10
0.346, 8.930e-10
0.348, 9.771e-10
0.350, 1.095e-9
0.352, 1.122e-9
0.354, 1.062e-9
0.356, 1.057e-9
0.358, 1.148e-9
0.360, 1.270e-9
0.362, 1.297e-9
0.364, 1.243e-9
0.366, 1.246e-9
0.368, 1.338e-9
0.370, 1.461e-9
0.372, 1.492e-9
0.374, 1.441e-9
0.376, 1.445e-9
0.378, 1.544e-9
0.380, 1.684e-9
0.382, 1.722e-9
0.384, 1.678e-9
0.386, 1.687e-9
0.388, 1.795e-9
0.390, 1.932e-9
0.392, 1.973e-9
0.394, 1.934e-9
0.396, 1.954e-9
0.398, 2.065e-9
0.400, 2.208e-9
0.402, 2.260e-9
0.404, 2.229e-9
0.406, 2.251e-9
0.408, 2.366e-9
0.410, 2.517e-9
0.412, 2.570e-9
0.414, 2.536e-9
0.416, 2.560e-9
0.418, 2.685e-9
0.420, 2.837e-9
0.422, 2.891e-9
0.424, 2.863e-9
0.426, 2.894e-9
0.428, 3.019e-9
0.430, 3.171e-9
0.432, 3.234e-9
0.434, 3.209e-9
0.436, 3.237e-9
0.438, 3.354e-9
0.440, 3.507e-9
0.442, 3.572e-9
0.444, 3.548e-9
0.446, 3.577e-9
0.448, 3.701e-9
0.450, 3.858e-9
0.452, 3.923e-9
0.454, 3.898e-9
0.456, 3.927e-9
0.458, 4.045e-9
0.460, 4.205e-9
0.462, 4.272e-9
0.464, 4.252e-9
0.466, 4.283e-9
0.468, 4.411e-9
0.470, 4.572e-9
0.472, 4.635e-9
0.474, 4.615e-9
0.476, 4.645e-9
0.478, 4.764e-9
0.480, 4.921e-9
0.482, 4.989e-9
0.484, 4.969e-9
0.486, 5.002e-9
0.488, 5.123e-9
0.490, 5.283e-9
0.492, 5.351e-9
0.494, 5.328e-9
0.496, 5.355e-9
0.498, 5.481e-9
0.500, 5.642e-9
0.502, 5.710e-9
0.504, 5.684e-9
0.506, 5.715e-9
0.508, 5.833e-9
0.510, 5.987e-9
0.512, 6.053e-9
0.514, 6.026e-9
0.516, 6.054e-9
0.518, 6.177e-9
0.520, 6.336e-9
0.522, 6.405e-9
0.524, 6.382e-9
0.526, 6.405e-9
0.528, 6.529e-9
0.530, 6.691e-9
0.532, 6.763e-9
0.534, 6.737e-9
0.536, 6.764e-9
0.538, 6.883e-9
0.540, 7.038e-9
0.542, 7.107e-9
0.544, 7.086e-9
0.546, 7.115e-9
0.548, 7.236e-9
0.550, 7.397e-9
0.552, 7.469e-9
0.554, 7.448e-9
0.556, 7.476e-9
0.558, 7.602e-9
0.560, 7.761e-9
0.562, 7.833e-9
0.564, 7.812e-9
0.566, 7.842e-9
0.568, 7.963e-9
0.570, 8.124e-9
0.572, 8.198e-9
0.574, 8.180e-9
0.576, 8.211e-9
0.578, 8.335e-9
0.580, 8.498e-9
0.582, 8.563e-9
0.584, 8.543e-9
0.586, 8.574e-9
0.588, 8.706e-9
0.590, 8.869e-9
0.592, 8.942e-9
0.594, 8.923e-9
0.596, 8.958e-9
0.598, 9.076e-9
0.600, 9.236e-9
0.602, 9.306e-9
0.604, 9.287e-9
0.606, 9.321e-9
0.608, 9.446e-9
0.610, 9.617e-9
0.612, 9.695e-9
0.614, 9.679e-9
0.616, 9.715e-9
0.618, 9.849e-9
0.620, 1.002e-8
0.622, 1.010e-8
0.624, 1.009e-8
0.626, 1.013e-8
0.628, 1.025e-8
0.630, 1.043e-8
0.632, 1.051e-8
0.634, 1.050e-8
0.636, 1.054e-8
0.638, 1.068e-8
0.640, 1.085e-8
0.642, 1.094e-8
0.644, 1.093e-8
0.646, 1.097e-8
0.648, 1.111e-8
0.650, 1.129e-8
0.652, 1.138e-8
0.654, 1.138e-8
0.656, 1.142e-8
0.658, 1.157e-8
0.660, 1.176e-8
0.662, 1.185e-8
0.664, 1.185e-8
0.666, 1.191e-8
0.668, 1.206e-8
0.670, 1.225e-8
0.672, 1.235e-8
0.674, 1.236e-8
0.676, 1.242e-8
0.678, 1.257e-8
0.680, 1.277e-8
0.682, 1.288e-8
0.684, 1.288e-8
0.686, 1.294e-8
0.688, 1.309e-8
0.690, 1.329e-8
0.692, 1.341e-8
0.694, 1.341e-8
0.696, 1.348e-8
0.698, 1.364e-8
0.700, 1.384e-8
0.702, 1.395e-8
0.704, 1.397e-8
0.706, 1.403e-8
0.708, 1.419e-8
0.710, 1.439e-8
0.712, 1.451e-8
0.714, 1.453e-8
0.716, 1.460e-8
0.718, 1.475e-8
0.720, 1.496e-8
0.722, 1.509e-8
0.724, 1.512e-8
0.726, 1.519e-8
0.728, 1.535e-8
0.730, 1.555e-8
0.732, 1.568e-8
0.734, 1.570e-8
0.736, 1.576e-8
0.738, 1.592e-8
0.740, 1.612e-8
0.742, 1.625e-8
0.744, 1.628e-8
0.746, 1.636e-8
0.748, 1.653e-8
0.750, 1.674e-8
0.752, 1.688e-8
0.754, 1.690e-8
0.756, 1.698e-8
0.758, 1.715e-8
0.760, 1.736e-8
0.762, 1.748e-8
0.764, 1.751e-8
0.766, 1.759e-8
0.768, 1.775e-8
0.770, 1.797e-8
0.772, 1.810e-8
0.774, 1.814e-8
0.776, 1.821e-8
0.778, 1.838e-8
0.780, 1.859e-8
0.782, 1.871e-8
0.784, 1.874e-8
0.786, 1.881e-8
0.788, 1.897e-8
0.790, 1.917e-8
0.792, 1.929e-8
0.794, 1.932e-8
0.796, 1.939e-8
0.798, 1.954e-8
0.800, 1.974e-8
0.802, 1.988e-8
0.804, 1.991e-8
0.806, 1.998e-8
0.808, 2.014e-8
0.810, 2.035e-8
0.812, 2.048e-8
0.814, 2.050e-8
0.816, 2.057e-8
0.818, 2.074e-8
0.820, 2.094e-8
0.822, 2.105e-8
0.824, 2.108e-8
0.826, 2.114e-8
0.828, 2.130e-8
0.830, 2.151e-8
0.832, 2.163e-8
0.834, 2.167e-8
0.836, 2.172e-8
0.838, 2.189e-8
0.840, 2.211e-8
0.842, 2.225e-8
0.844, 2.227e-8
0.846, 2.233e-8
0.848, 2.248e-8
0.850, 2.269e-8
0.852, 2.281e-8
0.854, 2.284e-8
0.856, 2.290e-8
0.858, 2.305e-8
0.860, 2.325e-8
0.862, 2.338e-8
0.864, 2.341e-8
0.866, 2.347e-8
0.868, 2.362e-8
0.870, 2.383e-8
0.872, 2.397e-8
0.874, 2.396e-8
0.876, 2.401e-8
0.878, 2.414e-8
0.880, 2.435e-8
0.882, 2.449e-8
0.884, 2.451e-8
0.886, 2.455e-8
0.888, 2.469e-8
0.890, 2.486e-8
0.892, 2.496e-8
0.894, 2.498e-8
0.896, 2.501e-8
0.898, 2.512e-8
0.900, 2.527e-8
0.902, 2.538e-8
0.904, 2.537e-8
0.906, 2.540e-8
0.908, 2.550e-8
0.910, 2.567e-8
0.912, 2.578e-8
0.914, 2.578e-8
0.916, 2.579e-8
0.918, 2.590e-8
0.920, 2.605e-8
0.922, 2.612e-8
0.924, 2.609e-8
0.926, 2.609e-8
0.928, 2.619e-8
0.930, 2.633e-8
0.932, 2.639e-8
0.934, 2.633e-8
0.936, 2.632e-8
0.938, 2.639e-8
0.940, 2.652e-8
0.942, 2.657e-8
0.944, 2.654e-8
0.946, 2.655e-8
0.948, 2.662e-8
0.950, 2.673e-8
0.952, 2.674e-8
0.954, 2.665e-8
0.956, 2.661e-8
0.958, 2.671e-8
0.960, 2.685e-8
0.962, 2.692e-8
0.964, 2.685e-8
0.966, 2.678e-8
0.968, 2.685e-8
0.970, 2.696e-8
0.972, 2.694e-8
0.974, 2.672e-8
0.976, 2.574e-8
0.978, 2.531e-8
0.980, 2.511e-8
0.982, 2.491e-8
0.984, 2.464e-8
0.986, 2.443e-8
0.988, 2.433e-8
0.990, 2.434e-8
0.992, 2.430e-8
0.994, 2.410e-8
0.996, 2.394e-8
0.998, 2.392e-8
0.999, 2.390e-8