File: BioGrapher/MachineReading/aa5.txt
Nov. 10, 2015   10:07:50
Linear Sweep Voltammetry
File: e:\10-11\ph17 mcf10a\acid\aa5.txt
Data Source:  Experiment
Instrument Model:  CHI1030C
Ref. Electrode:
Header:
Note:

Init E (V) = -1
Final E (V) = 1
Scan Rate (V/s) = 0.1
Sample Interval (V) = 0.001
Quiet Time (sec) = 2
Sensitivity (A/V) = 1e-7

Potential/V, Current/A

-1.000, -1.361e-8
-0.998, -1.168e-8
-0.996, -1.589e-8
-0.994, -8.895e-9
-0.992, -1.443e-8
-0.990, -1.233e-8
-0.988, -4.434e-9
-0.986, -5.065e-9
-0.984, -6.616e-9
-0.982, -9.863e-9
-0.980, -1.556e-8
-0.978, -2.008e-8
-0.976, -1.015e-8
-0.974, -3.663e-9
-0.972, -5.765e-9
-0.970, -7.230e-9
-0.968, -8.053e-9
-0.966, -1.004e-8
-0.964, -1.495e-8
-0.962, -2.005e-8
-0.960, -1.062e-8
-0.958, -6.347e-9
-0.956, -3.442e-9
-0.954, -5.454e-9
-0.952, -6.072e-9
-0.950, -6.938e-9
-0.948, -7.894e-9
-0.946, -9.627e-9
-0.944, -1.452e-8
-0.942, -2.364e-8
-0.940, -1.983e-8
-0.938, -9.881e-9
-0.936, -4.017e-9
-0.934, -2.338e-9
-0.932, -2.482e-9
-0.930, -2.709e-9
-0.928, -2.873e-9
-0.926, -3.220e-9
-0.924, -5.124e-9
-0.922, -5.871e-9
-0.920, -5.620e-9
-0.918, -8.320e-9
-0.916, -7.196e-9
-0.914, -9.685e-9
-0.912, -1.222e-8
-0.910, -1.628e-8
-0.908, -1.736e-8
-0.906, -1.583e-8
-0.904, -1.262e-8
-0.902, -8.933e-9
-0.900, -5.868e-9
-0.898, -4.086e-9
-0.896, -3.660e-9
-0.894, -4.654e-9
-0.892, -4.749e-9
-0.890, -5.158e-9
-0.888, -6.182e-9
-0.886, -6.569e-9
-0.884, -7.946e-9
-0.882, -9.161e-9
-0.880, -1.068e-8
-0.878, -1.227e-8
-0.876, -1.091e-8
-0.874, -1.072e-8
-0.872, -1.171e-8
-0.870, -1.423e-8
-0.868, -1.039e-8
-0.866, -1.127e-8
-0.864, -1.300e-8
-0.862, -1.442e-8
-0.860, -2.238e-8
-0.858, -1.336e-8
-0.856, -8.133e-9
-0.854, -4.697e-9
-0.852, -3.145e-9
-0.850, -2.948e-9
-0.848, -2.781e-9
-0.846, -2.675e-9
-0.844, -2.657e-9
-0.842, -2.672e-9
-0.840, -2.680e-9
-0.838, -2.719e-9
-0.836, -2.647e-9
-0.834, -2.852e-9
-0.832, -3.022e-9
-0.830, -3.098e-9
-0.828, -3.190e-9
-0.826, -3.114e-9
-0.824, -3.212e-9
-0.822, -3.381e-9
-0.820, -3.569e-9
-0.818, -3.247e-9
-0.816, -3.258e-9
-0.814, -3.395e-9
-0.812, -3.537e-9
-0.810, -3.565e-9
-0.808, -3.478e-9
-0.806, -3.478e-9
-0.804, -3.587e-9
-0.802, -3.637e-9
-0.800, -3.397e-9
-0.798, -3.401e-9
-0.796, -3.403e-9
-0.794, -3.341e-9
-0.792, -3.492e-9
-0.790, -3.643e-9
-0.788, -3.330e-9
-0.786, -3.463e-9
-0.784, -3.450e-9
-0.782, -3.649e-9
-0.780, -3.737e-9
-0.778, -3.586e-9
-0.776, -3.157e-9
-0.774, -3.414e-9
-0.772, -3.561e-9
-0.770, -3.550e-9
-0.768, -3.852e-9
-0.766, -3.735e-9
-0.764, -3.452e-9
-0.762, -3.739e-9
-0.760, -4.043e-9
-0.758, -3.957e-9
-0.756, -3.874e-9
-0.754, -4.127e-9
-0.752, -3.943e-9
-0.750, -3.911e-9
-0.748, -3.831e-9
-0.746, -3.700e-9
-0.744, -4.336e-9
-0.742, -4.296e-9
-0.740, -4.317e-9
-0.738, -4.178e-9
-0.736, -4.284e-9
-0.734, -4.007e-9
-0.732, -4.489e-9
-0.730, -4.347e-9
-0.728, -4.571e-9
-0.726, -4.111e-9
-0.724, -4.639e-9
-0.722, -4.966e-9
-0.720, -5.128e-9
-0.718, -5.025e-9
-0.716, -5.148e-9
-0.714, -4.886e-9
-0.712, -5.054e-9
-0.710, -5.662e-9
-0.708, -5.254e-9
-0.706, -5.189e-9
-0.704, -4.977e-9
-0.702, -4.439e-9
-0.700, -5.226e-9
-0.698, -5.100e-9
-0.696, -5.584e-9
-0.694, -5.038e-9
-0.692, -5.696e-9
-0.690, -5.525e-9
-0.688, -5.552e-9
-0.686, -5.741e-9
-0.684, -6.365e-9
-0.682, -5.786e-9
-0.680, -6.418e-9
-0.678, -6.069e-9
-0.676, -6.495e-9
-0.674, -6.989e-9
-0.672, -6.390e-9
-0.670, -6.228e-9
-0.668, -6.773e-9
-0.666, -6.749e-9
-0.664, -6.642e-9
-0.662, -6.563e-9
-0.660, -6.597e-9
-0.658, -7.043e-9
-0.656, -7.182e-9
-0.654, -7.390e-9
-0.652, -7.993e-9
-0.650, -8.297e-9
-0.648, -8.053e-9
-0.646, -8.074e-9
-0.644, -8.845e-9
-0.642, -7.822e-9
-0.640, -8.753e-9
-0.638, -7.731e-9
-0.636, -8.059e-9
-0.634, -7.944e-9
-0.632, -8.600e-9
-0.630, -8.417e-9
-0.628, -8.487e-9
-0.626, -7.933e-9
-0.624, -8.326e-9
-0.622, -8.273e-9
-0.620, -8.234e-9
-0.618, -8.081e-9
-0.616, -7.608e-9
-0.614, -6.998e-9
-0.612, -7.276e-9
-0.610, -7.265e-9
-0.608, -7.566e-9
-0.606, -7.468e-9
-0.604, -7.346e-9
-0.602, -7.941e-9
-0.600, -7.145e-9
-0.598, -7.155e-9
-0.596, -7.343e-9
-0.594, -7.816e-9
-0.592, -7.568e-9
-0.590, -7.301e-9
-0.588, -7.278e-9
-0.586, -8.410e-9
-0.584, -1.185e-8
-0.582, -9.673e-9
-0.580, -7.860e-9
-0.578, -6.850e-9
-0.576, -6.554e-9
-0.574, -5.823e-9
-0.572, -5.791e-9
-0.570, -5.073e-9
-0.568, -5.393e-9
-0.566, -4.512e-9
-0.564, -4.070e-9
-0.562, -3.969e-9
-0.560, -3.887e-9
-0.558, -3.994e-9
-0.556, -4.067e-9
-0.554, -3.623e-9
-0.552, -4.321e-9
-0.550, -3.984e-9
-0.548, -3.571e-9
-0.546, -3.568e-9
-0.544, -3.843e-9
-0.542, -3.728e-9
-0.540, -3.729e-9
-0.538, -3.709e-9
-0.536, -3.944e-9
-0.534, -4.297e-9
-0.532, -4.448e-9
-0.530, -4.677e-9
-0.528, -4.631e-9
-0.526, -4.754e-9
-0.524, -4.404e-9
-0.522, -4.556e-9
-0.520, -4.579e-9
-0.518, -4.644e-9
-0.516, -4.564e-9
-0.514, -4.378e-9
-0.512, -4.456e-9
-0.510, -4.400e-9
-0.508, -4.191e-9
-0.506, -4.169e-9
-0.504, -4.383e-9
-0.502, -4.214e-9
-0.500, -3.983e-9
-0.498, -3.867e-9
-0.496, -3.743e-9
-0.494, -3.698e-9
-0.492, -3.689e-9
-0.490, -3.643e-9
-0.488, -3.602e-9
-0.486, -3.648e-9
-0.484, -3.959e-9
-0.482, -3.879e-9
-0.480, -3.801e-9
-0.478, -3.821e-9
-0.476, -3.532e-9
-0.474, -3.255e-9
-0.472, -3.104e-9
-0.470, -2.997e-9
-0.468, -2.823e-9
-0.466, -2.900e-9
-0.464, -2.878e-9
-0.462, -2.810e-9
-0.460, -2.733e-9
-0.458, -2.622e-9
-0.456, -2.556e-9
-0.454, -2.625e-9
-0.452, -2.989e-9
-0.450, -3.080e-9
-0.448, -2.756e-9
-0.446, -2.854e-9
-0.444, -2.721e-9
-0.442, -2.842e-9
-0.440, -2.636e-9
-0.438, -2.687e-9
-0.436, -2.503e-9
-0.434, -2.487e-9
-0.432, -2.589e-9
-0.430, -2.276e-9
-0.428, -2.159e-9
-0.426, -2.170e-9
-0.424, -2.262e-9
-0.422, -2.348e-9
-0.420, -2.350e-9
-0.418, -2.229e-9
-0.416, -2.119e-9
-0.414, -2.155e-9
-0.412, -2.196e-9
-0.410, -2.140e-9
-0.408, -2.003e-9
-0.406, -1.899e-9
-0.404, -1.893e-9
-0.402, -1.670e-9
-0.400, -1.971e-9
-0.398, -1.812e-9
-0.396, -1.745e-9
-0.394, -1.787e-9
-0.392, -1.797e-9
-0.390, -1.753e-9
-0.388, -1.631e-9
-0.386, -1.564e-9
-0.384, -1.702e-9
-0.382, -1.767e-9
-0.380, -1.765e-9
-0.378, -1.665e-9
-0.376, -1.603e-9
-0.374, -1.654e-9
-0.372, -1.640e-9
-0.370, -1.555e-9
-0.368, -1.435e-9
-0.366, -1.370e-9
-0.364, -1.411e-9
-0.362, -1.465e-9
-0.360, -1.466e-9
-0.358, -1.406e-9
-0.356, -1.316e-9
-0.354, -1.349e-9
-0.352, -1.418e-9
-0.350, -1.365e-9
-0.348, -1.274e-9
-0.346, -1.136e-9
-0.344, -1.194e-9
-0.342, -1.261e-9
-0.340, -1.235e-9
-0.338, -1.140e-9
-0.336, -1.057e-9
-0.334, -1.083e-9
-0.332, -1.152e-9
-0.330, -1.166e-9
-0.328, -1.065e-9
-0.326, -9.858e-10
-0.324, -9.826e-10
-0.322, -1.029e-9
-0.320, -9.876e-10
-0.318, -8.458e-10
-0.316, -7.672e-10
-0.314, -8.597e-10
-0.312, -9.351e-10
-0.310, -9.352e-10
-0.308, -8.164e-10
-0.306, -6.988e-10
-0.304, -7.396e-10
-0.302, -8.340e-10
-0.300, -8.189e-10
-0.298, -7.349e-10
-0.296, -6.779e-10
-0.294, -7.008e-10
-0.292, -7.813e-10
-0.290, -8.125e-10
-0.288, -8.064e-10
-0.286, -7.000e-10
-0.284, -7.258e-10
-0.282, -7.938e-10
-0.280, -8.363e-10
-0.278, -7.475e-10
-0.276, -6.515e-10
-0.274, -6.698e-10
-0.272, -7.692e-10
-0.270, -7.523e-10
-0.268, -6.934e-10
-0.266, -6.222e-10
-0.264, -6.548e-10
-0.262, -7.248e-10
-0.260, -7.263e-10
-0.258, -6.550e-10
-0.256, -5.723e-10
-0.254, -5.977e-10
-0.252, -6.784e-10
-0.250, -6.715e-10
-0.248, -6.119e-10
-0.246, -5.341e-10
-0.244, -5.717e-10
-0.242, -6.423e-10
-0.240, -6.573e-10
-0.238, -5.975e-10
-0.236, -5.463e-10
-0.234, -6.088e-10
-0.232, -6.785e-10
-0.230, -6.772e-10
-0.228, -6.117e-10
-0.226, -5.061e-10
-0.224, -5.337e-10
-0.222, -6.308e-10
-0.220, -6.513e-10
-0.218, -5.672e-10
-0.216, -5.026e-10
-0.214, -5.411e-10
-0.212, -6.329e-10
-0.210, -6.481e-10
-0.208, -5.833e-10
-0.206, -5.138e-10
-0.204, -5.410e-10
-0.202, -6.466e-10
-0.200, -6.645e-10
-0.198, -6.017e-10
-0.196, -5.075e-10
-0.194, -5.416e-10
-0.192, -6.377e-10
-0.190, -6.666e-10
-0.188, -6.028e-10
-0.186, -5.279e-10
-0.184, -5.691e-10
-0.182, -6.676e-10
-0.180, -6.815e-10
-0.178, -6.096e-10
-0.176, -5.255e-10
-0.174, -5.747e-10
-0.172, -6.577e-10
-0.170, -6.821e-10
-0.168, -6.257e-10
-0.166, -5.342e-10
-0.164, -5.581e-10
-0.162, -6.479e-10
-0.160, -6.757e-10
-0.158, -6.205e-10
-0.156, -5.325e-10
-0.154, -5.786e-10
-0.152, -6.649e-10
-0.150, -6.802e-10
-0.148, -5.973e-10
-0.146, -5.216e-10
-0.144, -5.670e-10
-0.142, -6.699e-10
-0.140, -6.816e-10
-0.138, -6.021e-10
-0.136, -5.465e-10
-0.134, -5.715e-10
-0.132, -6.520e-10
-0.130, -6.697e-10
-0.128, -6.046e-10
-0.126, -5.133e-10
-0.124, -5.282e-10
-0.122, -6.156e-10
-0.120, -6.230e-10
-0.118, -5.451e-10
-0.116, -4.613e-10
-0.114, -4.829e-10
-0.112, -5.692e-10
-0.110, -5.949e-10
-0.108, -5.211e-10
-0.106, -4.347e-10
-0.104, -4.556e-10
-0.102, -5.505e-10
-0.100, -5.833e-10
-0.098, -5.292e-10
-0.096, -4.435e-10
-0.094, -4.684e-10
-0.092, -5.568e-10
-0.090, -5.754e-10
-0.088, -5.085e-10
-0.086, -4.362e-10
-0.084, -4.686e-10
-0.082, -5.674e-10
-0.080, -5.942e-10
-0.078, -5.384e-10
-0.076, -4.710e-10
-0.074, -5.024e-10
-0.072, -5.827e-10
-0.070, -6.021e-10
-0.068, -5.362e-10
-0.066, -4.526e-10
-0.064, -4.754e-10
-0.062, -5.651e-10
-0.060, -5.862e-10
-0.058, -5.168e-10
-0.056, -4.326e-10
-0.054, -4.578e-10
-0.052, -5.476e-10
-0.050, -5.695e-10
-0.048, -4.984e-10
-0.046, -4.224e-10
-0.044, -4.574e-10
-0.042, -5.616e-10
-0.040, -5.808e-10
-0.038, -5.135e-10
-0.036, -4.210e-10
-0.034, -4.299e-10
-0.032, -5.093e-10
-0.030, -5.158e-10
-0.028, -4.413e-10
-0.026, -3.533e-10
-0.024, -3.762e-10
-0.022, -4.668e-10
-0.020, -4.911e-10
-0.018, -4.282e-10
-0.016, -3.461e-10
-0.014, -3.656e-10
-0.012, -4.611e-10
-0.010, -4.867e-10
-0.008, -4.203e-10
-0.006, -3.370e-10
-0.004, -3.608e-10
-0.002, -4.564e-10
-0.000, -4.836e-10
0.002, -4.135e-10
0.004, -3.248e-10
0.006, -3.480e-10
0.008, -4.424e-10
0.010, -4.638e-10
0.012, -3.999e-10
0.014, -3.137e-10
0.016, -3.326e-10
0.018, -4.265e-10
0.020, -4.525e-10
0.022, -3.891e-10
0.024, -3.010e-10
0.026, -3.184e-10
0.028, -4.105e-10
0.030, -4.362e-10
0.032, -3.740e-10
0.034, -2.919e-10
0.036, -3.103e-10
0.038, -4.031e-10
0.040, -4.252e-10
0.042, -3.579e-10
0.044, -2.717e-10
0.046, -2.879e-10
0.048, -3.804e-10
0.050, -4.059e-10
0.052, -3.421e-10
0.054, -2.535e-10
0.056, -2.712e-10
0.058, -3.611e-10
0.060, -3.872e-10
0.062, -3.246e-10
0.064, -2.450e-10
0.066, -2.598e-10
0.068, -3.484e-10
0.070, -3.754e-10
0.072, -3.134e-10
0.074, -2.266e-10
0.076, -2.422e-10
0.078, -3.371e-10
0.080, -3.656e-10
0.082, -3.028e-10
0.084, -2.161e-10
0.086, -2.345e-10
0.088, -3.263e-10
0.090, -3.527e-10
0.092, -2.899e-10
0.094, -2.078e-10
0.096, -2.225e-10
0.098, -3.154e-10
0.100, -3.422e-10
0.102, -2.811e-10
0.104, -1.933e-10
0.106, -2.065e-10
0.108, -2.993e-10
0.110, -3.301e-10
0.112, -2.680e-10
0.114, -1.837e-10
0.116, -1.988e-10
0.118, -2.884e-10
0.120, -3.163e-10
0.122, -2.550e-10
0.124, -1.708e-10
0.126, -1.825e-10
0.128, -2.750e-10
0.130, -3.086e-10
0.132, -2.447e-10
0.134, -1.562e-10
0.136, -1.698e-10
0.138, -2.657e-10
0.140, -2.929e-10
0.142, -2.283e-10
0.144, -1.430e-10
0.146, -1.555e-10
0.148, -2.469e-10
0.150, -2.738e-10
0.152, -2.141e-10
0.154, -1.269e-10
0.156, -1.376e-10
0.158, -2.295e-10
0.160, -2.610e-10
0.162, -2.002e-10
0.164, -1.110e-10
0.166, -1.238e-10
0.168, -2.171e-10
0.170, -2.472e-10
0.172, -1.855e-10
0.174, -9.757e-11
0.176, -1.080e-10
0.178, -1.962e-10
0.180, -2.279e-10
0.182, -1.680e-10
0.184, -8.169e-11
0.186, -8.867e-11
0.188, -1.800e-10
0.190, -2.133e-10
0.192, -1.503e-10
0.194, -5.992e-11
0.196, -7.053e-11
0.198, -1.612e-10
0.200, -1.924e-10
0.202, -1.302e-10
0.204, -4.316e-11
0.206, -5.063e-11
0.208, -1.395e-10
0.210, -1.712e-10
0.212, -1.129e-10
0.214, -2.149e-11
0.216, -2.955e-11
0.218, -1.191e-10
0.220, -1.501e-10
0.222, -8.878e-11
0.224, 2.142e-12
0.226, -5.817e-12
0.228, -9.263e-11
0.230, -1.222e-10
0.232, -5.964e-11
0.234, 3.029e-11
0.236, 2.695e-11
0.238, -5.868e-11
0.240, -9.080e-11
0.242, -3.051e-11
0.244, 6.169e-11
0.246, 5.903e-11
0.248, -2.965e-11
0.250, -5.832e-11
0.252, 4.710e-12
0.254, 9.779e-11
0.256, 9.513e-11
0.258, 9.994e-12
0.260, -1.908e-11
0.262, 4.347e-11
0.264, 1.362e-10
0.266, 1.372e-10
0.268, 5.160e-11
0.270, 2.272e-11
0.272, 8.487e-11
0.274, 1.843e-10
0.276, 1.862e-10
0.278, 1.017e-10
0.280, 7.405e-11
0.282, 1.418e-10
0.284, 2.399e-10
0.286, 2.416e-10
0.288, 1.593e-10
0.290, 1.348e-10
0.292, 2.019e-10
0.294, 3.032e-10
0.296, 3.104e-10
0.298, 2.321e-10
0.300, 2.057e-10
0.302, 2.762e-10
0.304, 3.806e-10
0.306, 3.885e-10
0.308, 3.119e-10
0.310, 2.899e-10
0.312, 3.606e-10
0.314, 4.641e-10
0.316, 4.752e-10
0.318, 4.006e-10
0.320, 3.784e-10
0.322, 4.517e-10
0.324, 5.580e-10
0.326, 5.733e-10
0.328, 4.971e-10
0.330, 4.766e-10
0.332, 5.511e-10
0.334, 6.589e-10
0.336, 6.737e-10
0.338, 5.992e-10
0.340, 5.842e-10
0.342, 6.590e-10
0.344, 7.669e-10
0.346, 7.832e-10
0.348, 7.133e-10
0.350, 6.897e-10
0.352, 7.642e-10
0.354, 8.769e-10
0.356, 8.980e-10
0.358, 8.288e-10
0.360, 8.165e-10
0.362, 8.953e-10
0.364, 1.008e-9
0.366, 1.030e-9
0.368, 9.672e-10
0.370, 9.511e-10
0.372, 1.025e-9
0.374, 1.134e-9
0.376, 1.157e-9
0.378, 1.089e-9
0.380, 1.078e-9
0.382, 1.155e-9
0.384, 1.273e-9
0.386, 1.299e-9
0.388, 1.234e-9
0.390, 1.226e-9
0.392, 1.310e-9
0.394, 1.421e-9
0.396, 1.450e-9
0.398, 1.383e-9
0.400, 1.374e-9
0.402, 1.457e-9
0.404, 1.580e-9
0.406, 1.614e-9
0.408, 1.558e-9
0.410, 1.552e-9
0.412, 1.640e-9
0.414, 1.767e-9
0.416, 1.802e-9
0.418, 1.739e-9
0.420, 1.734e-9
0.422, 1.826e-9
0.424, 1.961e-9
0.426, 2.007e-9
0.428, 1.960e-9
0.430, 1.962e-9
0.432, 2.066e-9
0.434, 2.206e-9
0.436, 2.259e-9
0.438, 2.216e-9
0.440, 2.222e-9
0.442, 2.327e-9
0.444, 2.479e-9
0.446, 2.530e-9
0.448, 2.497e-9
0.450, 2.513e-9
0.452, 2.627e-9
0.454, 2.781e-9
0.456, 2.834e-9
0.458, 2.815e-9
0.460, 2.835e-9
0.462, 2.959e-9
0.464, 3.116e-9
0.466, 3.194e-9
0.468, 3.179e-9
0.470, 3.197e-9
0.472, 3.267e-9
0.474, 3.397e-9
0.476, 3.463e-9
0.478, 3.437e-9
0.480, 3.467e-9
0.482, 3.589e-9
0.484, 3.759e-9
0.486, 3.848e-9
0.488, 3.851e-9
0.490, 3.888e-9
0.492, 4.016e-9
0.494, 4.192e-9
0.496, 4.276e-9
0.498, 4.281e-9
0.500, 4.329e-9
0.502, 4.479e-9
0.504, 4.668e-9
0.506, 4.767e-9
0.508, 4.769e-9
0.510, 4.823e-9
0.512, 4.974e-9
0.514, 5.173e-9
0.516, 5.270e-9
0.518, 5.270e-9
0.520, 5.329e-9
0.522, 5.481e-9
0.524, 5.683e-9
0.526, 5.803e-9
0.528, 5.824e-9
0.530, 5.881e-9
0.532, 6.043e-9
0.534, 6.241e-9
0.536, 6.364e-9
0.538, 6.394e-9
0.540, 6.467e-9
0.542, 6.622e-9
0.544, 6.836e-9
0.546, 6.966e-9
0.548, 6.997e-9
0.550, 7.081e-9
0.552, 7.257e-9
0.554, 7.485e-9
0.556, 7.640e-9
0.558, 7.677e-9
0.560, 7.781e-9
0.562, 7.990e-9
0.564, 8.223e-9
0.566, 8.372e-9
0.568, 8.423e-9
0.570, 8.514e-9
0.572, 8.696e-9
0.574, 8.918e-9
0.576, 9.065e-9
0.578, 9.110e-9
0.580, 9.195e-9
0.582, 9.372e-9
0.584, 9.601e-9
0.586, 9.749e-9
0.588, 9.784e-9
0.590, 9.867e-9
0.592, 1.005e-8
0.594, 1.028e-8
0.596, 1.043e-8
0.598, 1.047e-8
0.600, 1.056e-8
0.602, 1.074e-8
0.604, 1.097e-8
0.606, 1.111e-8
0.608, 1.114e-8
0.610, 1.118e-8
0.612, 1.132e-8
0.614, 1.155e-8
0.616, 1.171e-8
0.618, 1.178e-8
0.620, 1.190e-8
0.622, 1.209e-8
0.624, 1.233e-8
0.626, 1.248e-8
0.628, 1.254e-8
0.630, 1.264e-8
0.632, 1.283e-8
0.634, 1.307e-8
0.636, 1.322e-8
0.638, 1.327e-8
0.640, 1.336e-8
0.642, 1.355e-8
0.644, 1.380e-8
0.646, 1.396e-8
0.648, 1.402e-8
0.650, 1.411e-8
0.652, 1.429e-8
0.654, 1.453e-8
0.656, 1.471e-8
0.658, 1.476e-8
0.660, 1.486e-8
0.662, 1.505e-8
0.664, 1.529e-8
0.666, 1.546e-8
0.668, 1.552e-8
0.670, 1.561e-8
0.672, 1.580e-8
0.674, 1.604e-8
0.676, 1.622e-8
0.678, 1.629e-8
0.680, 1.639e-8
0.682, 1.659e-8
0.684, 1.683e-8
0.686, 1.701e-8
0.688, 1.709e-8
0.690, 1.718e-8
0.692, 1.738e-8
0.694, 1.764e-8
0.696, 1.782e-8
0.698, 1.790e-8
0.700, 1.800e-8
0.702, 1.821e-8
0.704, 1.846e-8
0.706, 1.864e-8
0.708, 1.873e-8
0.710, 1.884e-8
0.712, 1.904e-8
0.714, 1.930e-8
0.716, 1.949e-8
0.718, 1.958e-8
0.720, 1.969e-8
0.722, 1.989e-8
0.724, 2.016e-8
0.726, 2.034e-8
0.728, 2.043e-8
0.730, 2.054e-8
0.732, 2.075e-8
0.734, 2.101e-8
0.736, 2.118e-8
0.738, 2.127e-8
0.740, 2.139e-8
0.742, 2.158e-8
0.744, 2.183e-8
0.746, 2.201e-8
0.748, 2.208e-8
0.750, 2.219e-8
0.752, 2.238e-8
0.754, 2.263e-8
0.756, 2.281e-8
0.758, 2.288e-8
0.760, 2.299e-8
0.762, 2.319e-8
0.764, 2.343e-8
0.766, 2.361e-8
0.768, 2.366e-8
0.770, 2.377e-8
0.772, 2.398e-8
0.774, 2.422e-8
0.776, 2.441e-8
0.778, 2.448e-8
0.780, 2.458e-8
0.782, 2.479e-8
0.784, 2.503e-8
0.786, 2.521e-8
0.788, 2.528e-8
0.790, 2.538e-8
0.792, 2.559e-8
0.794, 2.584e-8
0.796, 2.602e-8
0.798, 2.609e-8
0.800, 2.618e-8
0.802, 2.639e-8
0.804, 2.664e-8
0.806, 2.682e-8
0.808, 2.690e-8
0.810, 2.698e-8
0.812, 2.718e-8
0.814, 2.744e-8
0.816, 2.761e-8
0.818, 2.768e-8
0.820, 2.778e-8
0.822, 2.798e-8
0.824, 2.824e-8
0.826, 2.842e-8
0.828, 2.850e-8
0.830, 2.859e-8
0.832, 2.878e-8
0.834, 2.904e-8
0.836, 2.923e-8
0.838, 2.929e-8
0.840, 2.939e-8
0.842, 2.958e-8
0.844, 2.984e-8
0.846, 3.004e-8
0.848, 3.010e-8
0.850, 3.019e-8
0.852, 3.036e-8
0.854, 3.063e-8
0.856, 3.082e-8
0.858, 3.089e-8
0.860, 3.098e-8
0.862, 3.116e-8
0.864, 3.141e-8
0.866, 3.162e-8
0.868, 3.169e-8
0.870, 3.177e-8
0.872, 3.196e-8
0.874, 3.220e-8
0.876, 3.239e-8
0.878, 3.246e-8
0.880, 3.254e-8
0.882, 3.271e-8
0.884, 3.294e-8
0.886, 3.314e-8
0.888, 3.321e-8
0.890, 3.328e-8
0.892, 3.347e-8
0.894, 3.370e-8
0.896, 3.390e-8
0.898, 3.397e-8
0.900, 3.404e-8
0.902, 3.421e-8
0.904, 3.445e-8
0.906, 3.463e-8
0.908, 3.470e-8
0.910, 3.476e-8
0.912, 3.489e-8
0.914, 3.506e-8
0.916, 3.519e-8
0.918, 3.524e-8
0.920, 3.533e-8
0.922, 3.553e-8
0.924, 3.579e-8
0.926, 3.596e-8
0.928, 3.603e-8
0.930, 3.610e-8
0.932, 3.621e-8
0.934, 3.636e-8
0.936, 3.656e-8
0.938, 3.665e-8
0.940, 3.673e-8
0.942, 3.684e-8
0.944, 3.704e-8
0.946, 3.721e-8
0.948, 3.725e-8
0.950, 3.731e-8
0.952, 3.746e-8
0.954, 3.767e-8
0.956, 3.781e-8
0.958, 3.785e-8
0.960, 3.791e-8
0.962, 3.805e-8
0.964, 3.826e-8
0.966, 3.839e-8
0.968, 3.839e-8
0.970, 3.842e-8
0.972, 3.857e-8
0.974, 3.875e-8
0.976, 3.890e-8
0.978, 3.890e-8
0.980, 3.892e-8
0.982, 3.905e-8
0.984, 3.921e-8
0.986, 3.934e-8
0.988, 3.936e-8
0.990, 3.936e-8
0.992, 3.950e-8
0.994, 3.970e-8
0.996, 3.982e-8
0.998, 3.984e-8
0.999, 3.991e-8